File: spect/crystal-violet.txt
Wavelength (nm)	L03 abs e
220.00	17396
220.50	16357
221.00	15333
221.50	14335
222.00	13377
222.50	12771
223.00	12110
223.50	11361
224.00	10859
224.50	10472
225.00	9915.7
225.50	9652.7
226.00	9314.1
226.50	8985.3
227.00	8818.7
227.50	8597.2
228.00	8459.9
228.50	8237.3
229.00	8144.5
229.50	8090.2
230.00	7900.5
230.50	7971.9
231.00	7872.4
231.50	7805.9
232.00	7760.1
232.50	7818.7
233.00	7762.0
233.50	7874.8
234.00	7885.2
234.50	7972.5
235.00	8047.5
235.50	8235.4
236.00	8388.0
236.50	8513.0
237.00	8718.6
237.50	8920.6
238.00	9101.8
238.50	9321.4
239.00	9642.4
239.50	9871.2
240.00	10111
240.50	10498
241.00	10760
241.50	10975
242.00	11428
242.50	11655
243.00	12132
243.50	12407
244.00	12689
244.50	13034
245.00	13225
245.50	13575
246.00	13828
246.50	13985
247.00	14287
247.50	14546
248.00	14638
248.50	14739
249.00	14808
249.50	14742
250.00	14636
250.50	14622
251.00	14589
251.50	14284
252.00	14008
252.50	13670
253.00	13535
253.50	13199
254.00	12905
254.50	12812
255.00	12389
255.50	12130
256.00	11837
256.50	11440
257.00	11223
257.50	10892
258.00	10619
258.50	10436
259.00	10081
259.50	9784.5
260.00	9641.8
260.50	9393.4
261.00	9164.6
261.50	8937.1
262.00	8762.0
262.50	8641.8
263.00	8512.4
263.50	8253.7
264.00	8176.2
264.50	7967.0
265.00	7898.0
265.50	7726.6
266.00	7826.0
266.50	7550.3
267.00	7545.4
267.50	7232.4
268.00	7311.1
268.50	7276.3
269.00	7223.8
269.50	7187.8
270.00	7114.0
270.50	6979.8
271.00	6958.4
271.50	7029.2
272.00	6957.8
272.50	6857.2
273.00	6915.1
273.50	6881.0
274.00	6857.2
274.50	6983.5
275.00	6942.6
275.50	6957.8
276.00	7037.1
276.50	7056.1
277.00	7114.0
277.50	7243.4
278.00	7317.2
278.50	7344.6
279.00	7542.9
279.50	7561.8
280.00	7666.8
280.50	7730.9
281.00	7850.4
281.50	8004.2
282.00	8121.9
282.50	8227.5
283.00	8444.7
283.50	8582.0
284.00	8718.6
284.50	8873.0
285.00	9013.3
285.50	9104.2
286.00	9427.6
286.50	9622.8
287.00	9940.1
287.50	10216
288.00	10329
288.50	10597
289.00	10828
289.50	11128
290.00	11313
290.50	11642
291.00	11946
291.50	12245
292.00	12575
292.50	12957
293.00	13363
293.50	13511
294.00	13855
294.50	14029
295.00	14214
295.50	14421
296.00	14753
296.50	15158
297.00	15411
297.50	15710
298.00	16115
298.50	16158
299.00	16505
299.50	16698
300.00	16813
300.50	16940
301.00	17008
301.50	17151
302.00	17177
302.50	17291
303.00	17322
303.50	17194
304.00	17067
304.50	16872
305.00	16881
305.50	16806
306.00	16562
306.50	16213
307.00	15902
307.50	15459
308.00	15133
308.50	14913
309.00	14341
309.50	13914
310.00	13516
310.50	13427
311.00	12345
311.50	12648
312.00	11487
312.50	11352
313.00	10902
313.50	10404
314.00	10002
314.50	9533.8
315.00	8730.8
315.50	8564.3
316.00	8040.8
316.50	7737.0
317.00	7071.3
317.50	6840.1
318.00	6829.1
318.50	6400.8
319.00	6053.0
319.50	5860.8
320.00	5652.2
320.50	5591.8
321.00	5330.0
321.50	5106.7
322.00	5215.9
322.50	4353.2
323.00	4731.5
323.50	4291.0
324.00	4330.0
324.50	4031.7
325.00	3769.9
325.50	4076.2
326.00	3490.5
326.50	3223.9
327.00	3378.2
327.50	2967.0
328.00	3599.7
328.50	3189.7
329.00	3108.6
329.50	2809.6
330.00	2945.7
330.50	3164.7
331.00	2838.3
331.50	2818.8
332.00	2719.9
332.50	2826.7
333.00	2438.0
333.50	2747.4
334.00	2469.8
334.50	2588.7
335.00	2334.9
335.50	2015.2
336.00	2450.2
336.50	2275.8
337.00	1932.9
337.50	2390.5
338.00	1709.6
338.50	1842.6
339.00	1646.7
339.50	1677.8
340.00	1766.9
340.50	1676.6
341.00	1633.9
341.50	1391.1
342.00	1419.8
342.50	1840.7
343.00	1525.9
343.50	1579.0
344.00	1324.6
344.50	1671.7
345.00	1943.2
345.50	1649.2
346.00	1531.4
346.50	1497.8
347.00	1486.9
347.50	1599.7
348.00	1640.0
348.50	1771.8
349.00	1945.7
349.50	1796.2
350.00	1738.2
350.50	2078.1
351.00	1783.4
351.50	1676.6
352.00	1738.8
352.50	1687.6
353.00	1815.7
353.50	1539.9
354.00	1852.9
354.50	2015.2
355.00	1899.9
355.50	2010.4
356.00	1797.4
356.50	1745.6
357.00	1829.1
357.50	1756.5
358.00	1945.7
358.50	2027.4
359.00	1502.7
359.50	1800.5
360.00	1649.2
360.50	1641.8
361.00	1593.6
361.50	1713.8
362.00	1578.4
362.50	1690.0
363.00	1606.5
363.50	1561.3
364.00	1633.3
364.50	1701.6
365.00	1507.0
365.50	1558.3
366.00	1573.5
366.50	1487.5
367.00	1547.9
367.50	1595.5
368.00	1626.0
368.50	1525.9
369.00	1752.3
369.50	1541.8
370.00	1643.7
370.50	1605.8
371.00	1377.0
371.50	1665.0
372.00	1518.6
372.50	1748.6
373.00	1636.3
373.50	1276.4
374.00	1593.0
374.50	1433.2
375.00	1560.1
375.50	1381.9
376.00	1420.4
376.50	1416.1
377.00	1480.2
377.50	1385.6
378.00	1420.4
378.50	1485.6
379.00	1446.0
379.50	1277.6
380.00	1227.6
380.50	1191.6
381.00	1267.8
381.50	954.84
382.00	971.31
382.50	965.21
383.00	1084.2
383.50	863.93
384.00	1067.1
384.50	840.14
385.00	909.08
385.50	968.26
386.00	897.49
386.50	994.50
387.00	754.72
387.50	896.88
388.00	691.88
388.50	702.25
389.00	658.32
389.50	522.26
390.00	718.11
390.50	664.42
391.00	810.85
391.50	613.78
392.00	780.35
392.50	726.65
393.00	605.24
393.50	608.29
394.00	617.44
394.50	747.40
395.00	716.28
395.50	714.45
396.00	682.12
396.50	650.39
397.00	668.08
397.50	558.87
398.00	535.08
398.50	582.67
399.00	748.62
399.50	708.35
400.00	557.65
400.50	644.29
401.00	664.42
401.50	549.72
402.00	705.30
402.50	600.97
403.00	623.54
403.50	530.81
404.00	628.43
404.50	613.78
405.00	553.99
405.50	585.11
406.00	600.97
406.50	574.73
407.00	667.47
407.50	667.47
408.00	639.41
408.50	588.16
409.00	645.51
409.50	656.49
410.00	668.08
410.50	671.13
411.00	552.77
411.50	733.98
412.00	758.38
412.50	589.99
413.00	801.09
413.50	606.46
414.00	746.79
414.50	593.65
415.00	596.09
415.50	669.30
416.00	816.34
416.50	684.56
417.00	817.56
417.50	556.43
418.00	624.76
418.50	792.55
419.00	777.30
419.50	690.05
420.00	733.98
420.50	743.13
421.00	768.75
421.50	760.82
422.00	650.39
422.50	775.46
423.00	784.62
423.50	894.44
424.00	793.16
424.50	930.44
425.00	976.19
425.50	973.75
426.00	957.28
426.50	995.72
427.00	949.96
427.50	1040.9
428.00	989.62
428.50	862.71
429.00	1007.9
429.50	1133.6
430.00	1091.5
430.50	1028.1
431.00	1212.9
431.50	1075.0
432.00	1002.4
432.50	1037.2
433.00	1241.6
433.50	1295.3
434.00	1322.1
434.50	1238.5
435.00	1387.4
435.50	1331.9
436.00	1312.4
436.50	1434.4
437.00	1393.5
437.50	1471.6
438.00	1357.5
438.50	1389.9
439.00	1647.9
439.50	1500.9
440.00	1599.1
440.50	1593.0
441.00	1776.7
441.50	1699.8
442.00	1680.3
442.50	1801.7
443.00	1801.1
443.50	1900.5
444.00	1906.6
444.50	2028.0
445.00	2148.8
445.50	2042.1
446.00	2049.4
446.50	2122.0
447.00	2104.9
447.50	2188.5
448.00	2349.0
448.50	2188.5
449.00	2208.0
449.50	2297.7
450.00	2651.0
450.50	2646.1
451.00	2609.5
451.50	2677.2
452.00	2606.4
452.50	2656.5
453.00	2899.9
453.50	2992.0
454.00	3046.9
454.50	2984.7
455.00	3148.8
455.50	3196.4
456.00	3243.4
456.50	3342.9
457.00	3313.6
457.50	3319.1
458.00	3419.1
458.50	3486.2
459.00	3676.6
459.50	3780.3
460.00	3891.4
460.50	3666.8
461.00	3902.9
461.50	3925.5
462.00	4067.1
462.50	4270.9
463.00	4469.8
463.50	4351.4
464.00	4432.5
464.50	4471.6
465.00	4572.9
465.50	4719.9
466.00	4913.3
466.50	5016.4
467.00	5046.3
467.50	5276.9
468.00	5259.2
468.50	5373.3
469.00	5364.8
469.50	5631.4
470.00	5750.4
470.50	5823.0
471.00	5837.0
471.50	6086.6
472.00	6194.6
472.50	6345.3
473.00	6405.7
473.50	6744.3
474.00	6629.0
474.50	6741.8
475.00	7040.2
475.50	7078.6
476.00	7104.9
476.50	7370.9
477.00	7525.2
477.50	7768.7
478.00	7924.3
478.50	7975.5
479.00	8148.8
479.50	8377.0
480.00	8571.6
480.50	8666.8
481.00	8911.4
481.50	8946.2
482.00	9143.3
482.50	9198.2
483.00	9357.4
483.50	9662.5
484.00	9772.9
484.50	10094
485.00	10130
485.50	10396
486.00	10652
486.50	10637
487.00	10983
487.50	11276
488.00	11249
488.50	11614
489.00	11836
489.50	11995
490.00	12041
490.50	12243
491.00	12508
491.50	12938
492.00	13282
492.50	13305
493.00	13338
493.50	13836
494.00	13855
494.50	14023
495.00	14309
495.50	14842
496.00	14958
496.50	14944
497.00	15412
497.50	15750
498.00	15826
498.50	16057
499.00	16366
499.50	16712
500.00	17151
500.50	17423
501.00	17590
501.50	17880
502.00	18232
502.50	18711
503.00	18969
503.50	19172
504.00	19418
504.50	19765
505.00	19980
505.50	20603
506.00	20814
506.50	21303
507.00	21441
507.50	21881
508.00	22188
508.50	22500
509.00	23077
509.50	23380
510.00	23801
510.50	24336
511.00	24310
511.50	24530
512.00	25117
512.50	25585
513.00	26324
513.50	26559
514.00	27042
514.50	27336
515.00	27647
515.50	28094
516.00	28739
516.50	29231
517.00	29743
517.50	29999
518.00	30467
518.50	30764
519.00	31288
519.50	31800
520.00	32402
520.50	32677
521.00	32966
521.50	33532
522.00	33954
522.50	34451
523.00	34886
523.50	35174
524.00	35604
524.50	36169
525.00	36528
525.50	36828
526.00	37321
526.50	37814
527.00	38394
527.50	38827
528.00	39135
528.50	39693
529.00	40064
529.50	40512
530.00	40722
530.50	41227
531.00	41718
531.50	41924
532.00	42530
532.50	42917
533.00	43305
533.50	43765
534.00	43981
534.50	44153
535.00	44526
535.50	44732
536.00	45332
536.50	45676
537.00	45787
537.50	46281
538.00	46840
538.50	46948
539.00	47179
539.50	47500
540.00	47801
540.50	47926
541.00	48396
541.50	48797
542.00	48935
542.50	49467
543.00	49710
543.50	49682
544.00	49860
544.50	50085
545.00	50302
545.50	50516
546.00	50710
546.50	51173
547.00	51175
547.50	51100
548.00	51270
548.50	51588
549.00	51842
549.50	51973
550.00	51930
550.50	52165
551.00	52485
551.50	52576
552.00	52599
552.50	52827
553.00	52970
553.50	53116
554.00	53163
554.50	53355
555.00	53364
555.50	53686
556.00	53827
556.50	53999
557.00	54223
557.50	54212
558.00	54258
558.50	54456
559.00	54476
559.50	54858
560.00	55187
560.50	55309
561.00	55456
561.50	55625
562.00	55558
562.50	55936
563.00	56270
563.50	56407
564.00	56605
564.50	56860
565.00	57087
565.50	57375
566.00	57435
566.50	57686
567.00	58450
567.50	58538
568.00	58933
568.50	59231
569.00	59548
569.50	59932
570.00	60267
570.50	60658
571.00	61054
571.50	61523
572.00	61993
572.50	62391
573.00	62821
573.50	63246
574.00	63646
574.50	63882
575.00	64175
575.50	64865
576.00	65575
576.50	66053
577.00	66326
577.50	66800
578.00	67249
578.50	67855
579.00	68539
579.50	68908
580.00	69607
580.50	69957
581.00	70438
581.50	70776
582.00	71431
582.50	71912
583.00	72443
583.50	72636
584.00	73141
584.50	73647
585.00	73721
585.50	74163
586.00	74555
586.50	74987
587.00	75041
587.50	75182
588.00	75350
588.50	75533
589.00	75468
589.50	75673
590.00	75637
590.50	75800
591.00	75662
591.50	75549
592.00	75406
592.50	75149
593.00	74888
593.50	74627
594.00	74511
594.50	74193
595.00	73586
595.50	72917
596.00	72248
596.50	71812
597.00	71238
597.50	70360
598.00	69972
598.50	69046
599.00	68522
599.50	67400
600.00	66714
600.50	66008
601.00	65102
601.50	64351
602.00	63285
602.50	62470
603.00	61445
603.50	60433
604.00	59448
604.50	58462
605.00	57544
605.50	56276
606.00	54976
606.50	54145
607.00	52786
607.50	51940
608.00	50741
608.50	49653
609.00	48547
609.50	47312
610.00	46197
610.50	44891
611.00	43943
611.50	42657
612.00	41635
612.50	40710
613.00	39526
613.50	38517
614.00	37527
614.50	36932
615.00	35726
615.50	34808
616.00	33872
616.50	32767
617.00	31809
617.50	30726
618.00	29713
618.50	28737
619.00	27754
619.50	26900
620.00	26099
620.50	25093
621.00	24373
621.50	23331
622.00	22720
622.50	21783
623.00	21200
623.50	20269
624.00	19581
624.50	18910
625.00	18102
625.50	17604
626.00	16946
626.50	16265
627.00	15699
627.50	15177
628.00	14604
628.50	13896
629.00	13466
629.50	13018
630.00	12525
630.50	11990
631.00	11682
631.50	11128
632.00	10559
632.50	10209
633.00	9966.3
633.50	9574.0
634.00	9188.4
634.50	8831.5
635.00	8324.5
635.50	7863.9
636.00	7449.6
636.50	7376.4
637.00	7037.1
637.50	7123.8
638.00	6649.7
638.50	6255.0
639.00	6118.9
639.50	5683.3
640.00	5333.1
640.50	5288.5
641.00	5196.4
641.50	4896.2
642.00	4996.9
642.50	4352.0
643.00	4400.8
643.50	4083.5
644.00	4068.3
644.50	3892.0
645.00	3723.0
645.50	3653.4
646.00	3319.1
646.50	3276.4
647.00	3079.3
647.50	3045.1
648.00	2877.9
648.50	2854.8
649.00	2618.0
649.50	2579.6
650.00	2358.1
650.50	2413.6
651.00	2198.9
651.50	2037.8
652.00	2066.5
652.50	1902.4
653.00	1932.3
653.50	1785.8
654.00	1755.9
654.50	1712.6
655.00	1611.9
655.50	1506.4
656.00	1582.0
656.50	1336.8
657.00	1427.7
657.50	1357.5
658.00	1230.0
658.50	1248.3
659.00	962.77
659.50	1078.7
660.00	1028.7
660.50	862.71
661.00	915.79
661.50	851.12
662.00	862.10
662.50	909.69
663.00	854.78
663.50	838.31
664.00	829.16
664.50	617.44
665.00	703.47
665.50	589.38
666.00	575.95
666.50	544.84
667.00	519.82
667.50	577.79
668.00	511.28
668.50	532.03
669.00	338.01
669.50	499.08
670.00	499.69
670.50	444.78
671.00	220.25
671.50	377.06
672.00	333.13
672.50	344.11
673.00	395.97
673.50	325.80
674.00	409.39
674.50	338.01
675.00	352.65
675.50	231.85
676.00	246.49
676.50	283.10
677.00	315.43
677.50	381.33
678.00	492.37
678.50	283.10
679.00	92.738
679.50	218.42
680.00	122.63
680.50	236.73
681.00	250.76
681.50	298.96
682.00	209.88
682.50	90.908
683.00	164.12
683.50	301.40
684.00	97.009
684.50	137.28
685.00	177.55
685.50	206.22
686.00	133.62
686.50	183.65
687.00	180.60
687.50	108.60
688.00	285.54
688.50	40.268
689.00	43.319
689.50	247.71
690.00	251.98
690.50	37.828
691.00	90.298
691.50	147.65
692.00	114.09
692.50	119.58
693.00	9.1518
693.50	76.875
694.00	114.09
694.50	203.78
695.00	215.37
695.50	64.673
696.00	47.589
696.50	103.72
697.00	47.589
697.50	-46.369
698.00	-10.982
698.50	159.85
699.00	69.554
699.50	101.89
700.00	47.589